AccX[mg]	AccY[mg]	AccZ[mg]	GyrX[dps]	GyrY[dps]	GyrZ[dps]	
144.66150275	44.896001	1043.664276	-25.76765575	-27.75281225	-29.045624749999998
143.48725124999999	43.8742515	1042.2765195000002	-25.77640575	-27.744062250000002	-29.05765625
142.3587495	46.2075015	1043.6490172500003	-25.7293745	-27.792187	-29.03359375
141.59624874999997	48.17475125	1044.7012635	-25.72390625	-27.788906	-29.020469000000002
142.86199975	47.15300075	1046.97351075	-25.730469	-27.794375	-29.07296925
143.42625075	46.05500025	1049.13900775	-25.738125500000002	-27.77468725	-29.11890625
142.84675224999998	43.79800025	1047.3395082499999	-25.820156750000002	-27.71234375	-29.14406275
143.80750275	45.14000025	1046.714264	-25.791719000000004	-27.74078075	-29.14734425
144.34125125	49.1812505	1046.5922852499998	-25.703125	-27.73968675	-29.10578175
142.31300325	49.791251	1046.0280457499998	-25.63421875	-27.7473435	-29.10140675
142.17575050000002	49.715001	1046.05853275	-25.572969	-27.784531	-29.1287505
141.52000025	48.144250750000005	1045.4790345000001	-25.52921875	-27.73312525	-29.132031499999997
141.26074975	48.007001	1045.6467592499998	-25.6560935	-27.6817195	-29.146250249999998
142.404499	48.43400025	1045.0977480000001	-25.71296825	-27.668594	-29.139688
144.11249925	50.09624975	1045.509491	-25.74578025	-27.643437499999997	-29.126563
145.2562485	49.13550025000001	1047.0649720000001	-25.7195305	-27.679530999999997	-29.127657
144.96649925	46.665000250000006	1047.75122075	-25.667030750000002	-27.73968675	-29.13421925
143.97525025	46.3447505	1047.415741	-25.694374500000002	-27.73203075	-29.1287505
142.84675225	45.33825025	1047.3852539999998	-25.737030999999998	-27.74406225	-29.15171925
141.76400375	46.72599975	1047.50726325	-25.7731245	-27.74515625	-29.16375025
142.20625325	47.16825	1046.6837770000002	-25.78515575	-27.6839065	-29.165938
143.68550125	47.137749750000005	1047.29376225	-25.76437475	-27.716719	-29.161563
144.4937515	47.2597505	1046.790497	-25.686718499999998	-27.751719	-29.1396875
144.15825275	47.38175124999999	1046.546509	-25.708594	-27.773594	-29.106875
142.770504	48.510251249999996	1046.97351075	-25.791719	-27.83484375	-29.0718745
143.02975475	48.90675175	1047.553009	-25.805937750000002	-27.81296875	-29.04890575
140.6050035	46.848001499999995	1047.21752925	-25.83984425	-27.793280999999997	-29.035781
141.23025149999998	46.161750749999996	1047.75128175	-25.83546875	-27.74734325	-29.044531
141.26074999999997	45.70425025	1048.39178475	-25.77640625	-27.7079685	-29.06312475
141.41325	47.00049975	1048.6358034999998	-25.62984375	-27.704687	-29.0784375
142.49600225	48.4644995	1049.18478425	-25.5685935	-27.670781	-29.08390625
143.35000225	47.86975025	1048.4070132499999	-25.58718725	-27.683906	-29.077344
143.47200375	48.0985005	1048.3460085	-25.5762495	-27.67406225	-29.0456255
143.35000225	46.588751	1048.3764955	-25.6593745	-27.651094	-29.029218750000002
145.28675075	46.31425125	1048.74249275	-25.722812000000005	-27.622656499999998	-29.031406500000003
142.907753	44.865500749999995	1048.6814880000002	-25.6353125	-27.642344249999997	-29.03249975
141.68775175000002	44.71300049999999	1048.6204834999999	-25.6145315	-27.656563	-29.047812250000003
140.40675349999998	46.22275	1049.30673225	-25.69765675	-27.67953125	-29.089375000000004
139.67475124999999	47.19874975	1048.95599375	-25.653906749999997	-27.7189065	-29.09921825
141.88600150000002	48.3882495	1048.95599375	-25.75453175	-27.69593775	-29.1025
143.25850300000002	47.991749999999996	1048.1325075	-25.867188	-27.70359375	-29.087187500000002
143.91425325	46.238	1047.33950825	-25.838750249999997	-27.7189065	-29.0620315
143.7922555	46.2837505	1048.6815187500001	-25.904374999999998	-27.74625025	-29.02593775
144.08200475	47.671501	1047.99527	-25.828906	-27.752812499999997	-29.03031275
143.94475575	46.81750075	1049.77951075	-25.681250000000002	-27.78125025	-29.068593999999997
142.343506	45.6585015	1048.1325075	-25.6659375	-27.830468749999998	-29.07625
141.79450625	45.14000125	1046.820984	-25.616719000000003	-27.83921875	-29.081719
139.583256	45.9177515	1047.75125125	-25.623281749999997	-27.83921875	-29.0554685
139.52225525	47.79350125	1047.06500225	-25.74578175	-27.800937750000003	-29.0510935
141.84025225	49.486250999999996	1049.21527075	-25.777500500000002	-27.724375499999997	-29.04124975
142.526501	49.31850075	1049.2305295	-25.832188000000002	-27.699218999999996	-29.05874975
143.807499	48.41875	1049.2305295	-25.9153125	-27.70031275	-29.059843750000002
143.36524949999998	46.71074975	1046.25677475	-25.87921875	-27.70468775	-29.036875000000002
141.48950175	48.35774925	1045.1740112500001	-25.807031249999998	-27.751719	-29.04343775
141.657253	48.159499249999996	1046.2262572500001	-25.720625	-27.8020315	-29.06750025
142.923004	46.35999975	1047.11074825	-25.712969	-27.777969000000002	-29.09375
144.05150225	48.6170005	1049.8099975	-25.77312475	-27.777969000000002	-29.09375
143.883751	48.32725125	1048.9559935	-25.830000000000002	-27.73968775	-29.105781
144.06674975	49.776001750000006	1048.83401475	-25.84421875	-27.700313	-29.106875
143.1365015	49.12025150000001	1049.04751575	-25.8595315	-27.694844	-29.12984375
141.93175125	46.848001499999995	1046.5617674999999	-25.8267195	-27.67078125	-29.1910935
167.99400325	44.682501	1048.6357727500001	-25.581719	-28.4714065	-30.22031225
195.032253	38.97900075	1045.11300675	-25.43734425	-29.064219	-30.40078075
222.48225000000002	35.73075075	1042.04776025	-25.237188	-29.502813000000003	-30.20718725
248.98675150000003	33.85500025	1040.9649965	-25.117969249999998	-29.725938	-30.226875
253.683754	28.7615005	1033.614502	-25.237188249999996	-28.4681255	-29.57499975
250.20675674999998	31.018500000000003	1038.3724975	-25.787344249999997	-25.93281275	-29.529062250000003
248.63600925	37.14899975	1039.44000225	-26.26312525	-24.344688	-29.911874750000003
250.95400999999998	34.20575	1036.93902575	-26.158125	-23.22031325	-30.5790625
246.10450749999998	35.09025	1040.736267	-26.3932815	-21.841094249999998	-30.761719
244.07625574999997	34.404000249999996	1037.0000304999999	-26.3714065	-21.812656750000002	-31.2189065
238.28125375000002	27.52625075	1040.278778	-26.456719250000003	-21.53046925	-31.088749999999997
228.18575275000003	34.190501	1030.53401175	-28.210001	-19.5496875	-29.343124999999997
222.20775200000003	31.43025075	1035.780014	-28.957032249999997	-19.30796875	-28.55453125
214.32350150000002	25.345500750000003	1047.41575625	-29.31140725	-18.71734375	-27.7954685
208.4522515	22.9970005	1043.8167572500001	-29.430625499999998	-17.95062475	-25.0096875
189.283001	11.60525	965.41651925	-28.27562475	-22.71390625	-20.478281
190.5792505	5.673	957.6390227500001	-27.23109325	-25.8245315	-10.99874975
206.652752	12.23049975	942.9685210000001	-26.166874749999998	-28.51078125	-3.4114062500000006
195.24575425	14.823	942.35850525	-25.51062475	-31.0165625	-2.743125
208.11675275	11.69675	1035.91723625	-24.80625	-29.44593775	-3.3359375000000004
169.62575349999997	35.63924925	1278.6362305	-15.34203125	-6.584375499999998	-13.20484375
177.1897565	10.339499	1337.9434815	-14.34015575	-1.187813249999998	-28.101719
179.55350700000002	10.064998500000002	1352.3089905000002	-14.244999749999998	-0.8520322499999988	-33.6820315
165.73700925	5.0629985	1400.08724975	-15.4492185	0.25593675000000093	-38.57875
192.39400874999998	-5.44425025	1162.4617615	-25.14203125	-21.2964065	-38.11390625
153.72000524999999	26.306250249999998	1105.36575325	-26.592343999999997	-26.558437750000003	-30.966249750000003
143.8532525	31.3235005	1084.3055115	-26.562813	-26.303594	-28.64093725
152.91175074999998	40.0770005	1053.2107545000001	-24.18390675	-26.452344000000004	-26.998124999999998
147.31500250000002	37.56074975	1051.7619935000002	-24.82593775	-27.93984425	-28.66171875
150.182003	38.826500749999994	1084.5190125	-26.116562750000003	-30.03437575	-28.836719000000002
131.37875375	44.011500999999996	1098.9912720000002	-28.203437	-33.859218999999996	-30.149219000000002
128.999756	24.262751249999997	1108.5530395	-30.766093	-39.3181255	-36.3759375
145.3477555	-4.452999249999998	1139.06829825	-14.340155999999999	-44.58234375000001	-38.0165625
183.48800275	2.8822497499999997	1108.6597900000002	6.170937500000003	-51.27062500000001	-42.8290625
233.142002	15.7684995	1118.5417785	14.171718250000001	-57.74343775	-46.880313
248.9257505	58.60574925	1089.6277770000002	11.598124250000003	-56.2143745	-45.15656275
251.44200099999998	113.65824900000001	1042.29176325	-14.02843675	-49.33796825	-45.000156499999996
216.13825200000002	97.996499	1052.41777025	-35.64968675	-43.06421775	-46.4898435
206.820503	88.8617485	1047.400528	-41.07796775	-32.59703025	-46.3793745
191.9517515	100.83299725	1045.296036	-40.7203115	-26.900780750000003	-48.88953125
188.21549975	77.530998	1084.8240357500001	-31.589687249999997	-23.447812250000002	-52.0592185
204.2280005	101.9157495	1075.8417665	-31.82484325	-16.587812500000002	-50.1145315
204.19750200000001	117.6995	1040.065262	-33.620781	-18.1835935	-51.88749975
227.92650600000002	86.16250124999999	1059.966507	-30.272812250000005	-25.00968675	-53.548906249999995
233.73675525	94.321251	1031.464264	-36.606719	-31.333749499999996	-52.111719
235.44475549999999	82.79224975	992.21076975	-42.8465625	-34.05062425	-51.0234375
248.43775174999996	49.71499975	995.62677	-48.138125	-35.16078125	-48.927812749999994
233.6452485	58.803999499999996	957.3492585	-53.998436999999996	-30.082500250000002	-46.38593775
235.8260005	57.218001	943.22775275	-51.61843675	-20.81078125	-46.025000750000004
238.052502	39.055250750000006	976.32026675	-46.51171875	-15.7751565	-46.611250999999996
231.52550524999998	56.760501000000005	987.2087554999999	-42.99093725	-5.1242185000000005	-43.552032499999996
252.32650775000002	53.4817515	1019.03552225	-37.7857815	-0.7732812500000001	-38.44640749999999
243.64925774999998	42.16625075	1046.0890195	-34.092187499999994	-4.2065625	-30.97609425
228.20100775	45.70425074999999	1048.68151825	-32.57953125	-8.24031225	-22.706250249999997
217.55650725	25.8487505	1064.92275975	-31.611563250000003	-14.507499750000001	-16.74859375
184.93675625	16.317500250000002	1060.9577330000002	-30.2629695	-18.552187	-13.123906
183.19825375	1.6927499999999984	1058.1822510000002	-27.247501	-21.929686750000002	-12.43265625
168.72600200000002	1.3267499999999997	1044.79274	-16.3318755	-22.905312000000002	-11.817968749999999
139.62900175	14.60950025	1028.4295045	-2.5353122500000005	-14.230780749999997	-8.16921875
137.05175025	13.648750249999999	1044.22851575	13.769219249999999	-7.722968499999999	-6.997812499999999
109.28150175	41.57150125	1042.70349125	23.14703175	-5.7257815	-8.6646875
119.65150075000001	53.786752	1073.85923775	22.31796925	-6.284688	-12.88875
102.41900000000001	102.23600325000001	1030.640732	14.91437525	-13.679531749999999	-19.45124975
84.33249975000001	142.08425325000002	975.3442385000001	8.763124999999999	-7.7218755	-22.7631245
64.18724900000001	164.91350175	995.70300325	12.5518745	-2.3110939999999993	-22.55421825
21.7922495	203.87725075000003	988.7795107500001	13.77796825	0.7393750000000003	-23.2782805
35.471498999999994	199.86650075	1061.4762727500001	15.39015575	-2.4489062500000003	-25.473437000000004
34.7395005	231.3272515	1112.4875185	10.265937000000001	-22.39125	-29.709531000000005
40.6412505	266.40225599999997	1104.84725975	0.86625	-41.32843675	-33.7104685
72.30025175	264.80100625	1085.5407565	-17.24078125	-56.99859225	-35.11921875
86.6200035	262.92525474999997	1081.3470005	-37.5768745	-67.1245305	-35.21875
106.99400225000001	220.942005	1079.974503	-53.6604685	-69.845781	-33.882188
126.10225299999999	193.30900175	1043.283005	-77.67156225	-65.35046925	-33.20296975
134.58125124999998	158.11200125000002	1049.7490235	-85.860468	-59.10296975	-32.976563500000005
133.712	123.3877505	1022.9242704999999	-91.547968	-53.641875	-32.75890750000001
93.13175025000001	87.74849925000001	1000.52201825	-88.8343735	-46.2010935	-31.17515725
106.033251	32.81799825	1062.681015	-61.606561	-44.372344	-33.801249999999996
108.19875149999999	28.669999499999996	1072.80699175	-45.22218625	-42.333594500000004	-38.319531
149.75500499999998	19.6420005	1053.607239	-24.516405749999997	-42.977813999999995	-43.65046825
216.961754	35.9137505	1059.47848525	3.0231249999999985	-48.82390725	-49.8957805
258.45700475	69.3875005	1015.9244994999999	10.902499749999999	-48.436719249999996	-51.223593750000006
266.9817545	80.7487505	984.02151475	1.1014057499999979	-39.31812525	-46.74468825
207.491501	77.92750075	1009.33651725	-19.616406250000004	-21.45609375	-39.7479695
181.4140015	53.847750749999996	1056.10827625	-44.96296875	-1.6668752499999986	-36.314688499999995
128.55749875	44.0725015	1070.68728625	-60.04468725	9.18312475	-36.23265725
111.34024799999999	50.44700175	1067.92703225	-45.06468725	2.9924997500000003	-40.48406275
129.60974875	64.50750075	1059.7072905	-20.74953125	-10.03515625	-45.51421925
128.87775025	100.98550025	1012.21879575	-11.279843750000001	-22.8134375	-47.15484425
122.640501	122.12199950000002	982.4660339999999	-5.46109375	-29.81999975	-45.3676565
114.45125200000001	120.1394975	1015.2230227499999	-1.53234375	-29.3803125	-41.2551565
111.15725125000002	127.39849849999999	1032.9740145	-1.61875	-28.995312249999998	-37.83718775
109.434	136.83825124999998	1038.159012	-3.49781275	-29.471093749999998	-35.042656
121.6187515	133.788252	1062.177765	-12.019219	-32.14640625	-32.440625
141.23025325	137.84475525	1068.01852425	-23.66546925	-36.194374499999995	-31.062500249999996
164.50175475000003	148.76375575000003	1059.6767882499998	-31.430000749999998	-39.9546875	-29.807968999999996
176.732254	156.17525475000002	1041.7885282500001	-32.33343775	-43.669062499999995	-26.985000499999998
180.69725425	147.77250475	1042.978012	-27.28906275	-43.77843750000001	-24.68046875
185.05875400000002	143.685503	1044.15226725	-23.290312500000002	-42.148750250000006	-23.021250000000002
181.947754	136.975504	1041.3462522500001	-21.69890575	-40.66015625	-21.401406
188.76450749999998	124.3027535	1054.6747587500001	-24.868593500000003	-37.221406	-21.26468725
204.07550450000002	131.607504	1026.7215115000001	-32.73812525	-32.45375025	-20.56359375
218.63925174999997	135.51150325	996.8010097499999	-35.2056255	-27.5089065	-19.53546875
231.51025025	136.685751	991.28051725	-33.665625500000004	-24.333750499999997	-18.36078125
228.49074950000002	144.5547525	974.6275175000001	-29.607813	-21.500937999999998	-16.54953125
235.56674950000001	136.746752	992.500534	-19.560625	-23.432500499999996	-15.10578125
216.6415025	119.89550224999999	1023.8240205	-10.74281225	-29.059844249999998	-14.26578125
212.75275424999998	109.0527535	1060.62226875	-8.5279685	-29.31906275	-15.5640625
221.628254	114.17675025	1085.66275025	-11.4668745	-30.209374999999998	-17.9221875
207.62875375	121.359499	1098.89974975	-16.83062475	-32.1004685	-20.7364065
222.83300400000002	137.35674875	1097.87802125	-25.633124249999998	-30.072656000000002	-22.892187749999998
230.9917565	159.8657495	1062.31501775	-30.817498999999998	-29.9337495	-23.48937525
230.107254	147.2387505	1059.188797	-30.657811499999998	-30.8054685	-22.90859425
226.05075449999998	139.06475075	1047.2785492500002	-34.46078	-28.074374749999997	-22.23484375
230.534252	123.265751	1039.95854175	-33.796874	-24.849999999999998	-22.195469
217.15999975	88.72449974999999	1105.030304	-31.369843	-33.701719	-29.617656750000002
220.08800125	70.51599975	1138.7937927500002	-34.64999925	-38.05265625	-37.32421875
240.78224949999998	48.95250025	1102.7732847500001	-36.34749925	-43.24359375	-42.34671925
212.34099974999998	45.93300125	1057.26727275	-33.8964055	-54.190937000000005	-43.59031275
215.177498	49.974250749999996	999.9425045	-33.75093675	-54.5059365	-36.51375
192.439747	71.15650174999999	855.6622465	-35.85421875	-54.5912495	-29.247969
172.37075075	69.46375175	776.81974775	-36.7237495	-58.77703100000001	-24.47593725
173.91099975	67.96925075	677.100006	-41.58218725	-61.18109425	-22.202030999999998
148.68750025	51.10275075	540.490509	-43.415313	-55.772501250000005	-22.63296875
180.2092515	38.979	455.19725775	-45.133593749999996	-50.553126000000006	-24.44203125
197.07575225	43.9505005	417.34675574999994	-35.64203175	-42.46921975	-25.09500025
204.53300474999998	14.213000250000004	475.90675324999995	-24.7712505	-26.293750499999998	-27.76375025
231.76950474999998	19.10825	521.6567532500001	-20.58875	-15.804687750000003	-29.716094249999998
179.26375425	-5.002	719.174751	-2.480625	-10.472656500000001	-31.88718825
166.27075424999998	-4.376750250000001	894.3820035	-4.02828125	3.7843750000000003	-38.712188499999996
189.06950225	42.07475075	985.5465085000001	-3.43546875	7.875	-43.11015724999999
184.12850025	74.57249974999999	1176.61376925	0.1640625	13.4214065	-48.19609475
254.1412545	131.30249899999998	1278.2702635	-4.9437500000000005	29.103594	-51.80984425
290.90900050000005	173.529751	1333.04824825	-9.057344	37.736562750000004	-51.92359375
308.75149925000005	193.7665025	1462.68850725	-21.414531500000002	45.81937500000001	-50.977500000000006
308.23300174999997	221.61300275000002	1504.6870119999999	-22.67562525	39.932812250000005	-46.89343725
298.1832505	223.0922545	1584.70376625	-26.7050005	25.44718725	-43.89000025
291.90025325	240.11125175	1608.17352325	-27.923437749999998	3.8281247499999997	-38.447500500000004
252.93650424999998	233.32500075000002	1602.7292482500002	-20.756094	-22.86374975	-33.13296925
247.9955025	202.001503	1570.2924805	-25.979844	-36.328906	-30.152500000000003
236.84775175	185.66875075000002	1423.358734	-28.9996875	-50.45906175	-25.34218725
176.44250125	144.32600200000002	1393.46875	-21.424375	-64.1735935	-22.40656225
159.65225225	116.00675175000002	1303.2955017499999	-24.1095315	-57.620937250000004	-22.98843725
168.32950200000002	104.35575075000001	1179.41975425	-25.261250750000002	-57.79265575000001	-20.54171875
100.5889995	75.243502	1106.997513	-23.483907000000002	-64.235937	-16.94
85.99474925000001	50.35550125	994.8947450000001	-32.522656500000004	-59.053748999999996	-16.040937500000002
89.639498	52.978500499999996	822.7985077500001	-41.1129685	-61.07499875	-15.8167185
98.24049975	41.5257505	720.47100825	-40.01374925	-63.428749	-16.833906
144.69200075	43.73700025	627.2324982499999	-41.097655499999995	-58.76171875	-19.90515625
206.241001	60.908499750000004	494.40499875	-36.9971875	-52.012188	-22.3890625
253.77525325	54.2442495	483.19624324999995	-26.987187749999997	-49.506406750000004	-22.02156275
235.52100374999998	57.675499	463.44749449999995	-25.6976565	-37.4018755	-23.241093749999997
261.76625049999996	47.59524925	520.33000175	-23.48281275	-19.011562500000004	-25.073125
234.31624974999997	27.52624975	607.117752	-28.61031275	-6.404999500000001	-24.65312475
178.80624949999998	2.4247492499999996	698.98374925	-27.3120315	5.67875	-25.1256245
188.00199675	-30.05774975	849.4860074999999	-29.98843775	17.608280999999998	-26.3003125
162.473501	15.082251499999998	867.16075125	-27.08781275	12.717030999999999	-24.0209375
104.95050025	-2.4857480000000045	1055.483017	-4.099375	4.908749749999999	-23.569218749999997
107.6497495	43.2490045	1164.6577607499999	-5.544218750000001	8.41531225	-27.798750000000002
95.87675075000001	129.09125699999998	1190.048996	4.15515625	0.05250000000000046	-29.841875
87.04700075	130.23500625	1347.81024175	13.501250249999998	-8.98953175	-33.2073435
176.2900065	243.11550499999998	1371.3257445	4.314844	-14.717501	-37.27390625
254.8580055	302.072006	1434.2929989999998	5.224843750000001	-25.8409385	-36.704063
294.84350574999996	316.117256	1497.9160155	-4.787344	-31.484688500000004	-35.78968775
309.834255	343.61300650000004	1497.6262814999998	-20.837032	-26.719219250000002	-36.060938
291.2140005	305.18300625	1478.22827125	-37.7354695	-21.46156275	-35.741563
249.58150074999998	275.68950275	1398.608032	-45.456250250000004	-28.15968825	-33.40203175
202.61149975	223.04649925	1394.963287	-41.3448435	-38.1850005	-32.7140625
216.27549750000003	188.68824949999998	1338.5230404999998	-42.91984325	-44.40515675	-32.785156
204.8227465	153.97924999999998	1244.201782	-37.410625	-58.13937575	-29.05546875
168.146498	109.6780015	1197.4147642500002	-30.90828125	-64.7325	-26.886562499999997
167.444998	101.61075224999999	1097.2222595	-31.687031750000003	-70.5173435	-22.857187999999997
105.46899925000001	72.285001	958.4777525	-31.286719249999997	-75.8756255	-19.48843775
112.33150225	54.3357515	842.6997527499999	-34.01343725	-72.35703175	-21.44078125
153.3845055	63.8670015	712.571518	-39.620000499999996	-72.31546875000001	-22.78281225
184.08275525	58.86500075000001	588.0552519999999	-40.7137505	-67.8245325	-25.090625
253.409256	60.52725125	538.18775175	-40.322188000000004	-59.012188	-28.661719249999997
307.2417525	89.45650025	468.05300125	-40.88218825	-46.65828125	-29.593594250000002
336.62850175	74.46574975	479.6429975	-33.67437525	-31.869688250000003	-29.30593775
326.18225475	64.26350024999999	526.9637525	-32.58500025	-13.781250000000002	-29.15718725
293.867504	54.640749750000005	588.5737455	-27.5745315	-0.5315624999999993	-26.7279685
187.2547555	-7.213250500000001	767.440994	-16.227968999999998	4.381562499999999	-26.30578075
116.44900175000001	-27.221251249999998	848.93699625	-27.0746875	21.24609325	-32.33562475
146.36949950000002	-23.073251500000005	871.15625	-27.92124975	30.0256245	-36.857188
152.83549925	12.794748749999997	967.5057677499999	-18.793906	20.86328075	-36.4732815
188.8255005	48.54075	1074.36251825	-13.10203125	19.95328075	-36.5990625
255.8340055	139.88825425	1210.773773	-0.1640627499999996	18.66375	-36.2282815
239.5317595	202.09300524999998	1397.6167599999999	6.7342185	10.00125	-32.510624750000005
202.00150975000003	230.35125649999998	1537.5507504999998	1.1003122500000009	12.947812500000001	-34.189531249999995
212.93575775	302.80400875	1574.53201275	-9.4314065	8.899843750000002	-35.1717195
174.32275475	293.41000375	1587.4335019999999	-13.80968775	-13.993437	-30.69281275
134.45925225	284.96150224999997	1565.56500225	-20.3514065	-30.4073435	-30.148125
169.41225425	278.51075	1483.59625225	-30.173281250000002	-40.889844	-29.87140575
182.7102545	251.51824975	1391.47100825	-32.5860935	-55.444376	-26.41953075
154.6045035	206.485001	1404.46401975	-32.238281	-65.0409395	-24.4584375
147.60475325000002	169.4732515	1332.27053825	-39.330156	-66.854376	-24.5503125
131.47025100000002	124.0130025	1230.7665405	-43.0773435	-75.1537515	-23.17875025
109.81525225	79.6050005	1154.8062742500001	-43.6231245	-82.49390625	-22.211875000000003
113.6430015	62.43350025000001	972.3400267500001	-51.126249	-84.26140625	-21.65406225
131.80575	39.1010005	804.43751525	-54.778281	-85.42515775000001	-21.587343750000002
175.34449975	34.22100025	666.303009	-53.270000249999995	-81.60140625000001	-22.65156275
218.212248	34.419250000000005	553.285263	-52.7800005	-73.77562525	-23.60203125
266.35650275	32.84849975	435.204506	-48.45750125	-59.305312	-25.030469
325.37400075000005	30.0424995	399.45851124999996	-38.610469	-43.00953	-25.0982815
339.87675475	22.3412495	440.34376524999993	-27.613906250000003	-24.147811750000002	-24.588594
332.38900750000005	-3.049999999999999	517.2190095	-19.11546875	-2.4193747500000002	-24.83578175
284.397253	-14.167249750000002	668.63625325	-9.40624975	7.2384375	-24.8631255
200.11050600000002	-36.3102495	854.6252440000001	-3.0734375	16.229062499999998	-27.80968825
193.04975324999998	-18.391499749999998	929.7619932499999	-7.79515625	25.49421925	-32.826719499999996
186.27875325	34.52599975	997.8990020000001	-6.118437500000001	18.954687999999997	-33.816563249999994
186.78200525	43.82849974999999	1095.45326225	-3.775625	14.503125500000001	-33.54203175
233.78250500000001	122.91499999999999	1142.51478575	-5.8012500000000005	12.59781275	-33.5781255
238.799755	153.9487525	1283.0892945	-0.5140625000000003	5.4435935	-30.557187499999998
219.798252	159.8810035	1353.2698057500002	-7.54249975	6.56906225	-30.415
232.80649949999997	209.97725300000002	1352.00405875	-17.498905999999998	8.571718500000001	-31.382968499999997
218.34949875	200.35450350000002	1352.59878525	-21.69343725	-1.3004685	-28.2307805
158.38649750000002	193.04975125000004	1288.503021	-26.741093749999997	-11.77749975	-25.8748435
144.28024875	182.98475075000002	1225.215515	-28.658437999999997	-18.63203125	-25.1168745
118.50774949999999	146.29325125	1152.94577025	-29.988438249999998	-26.913905749999998	-24.040625000000002
100.54325100000001	128.5117515	1086.928528	-29.0992195	-31.4125	-24.448594
112.74325175000001	115.68650275	1067.13403325	-27.6554695	-34.522031250000005	-25.40234375
117.82150075	117.94350449999999	1066.8900147499999	-25.4723445	-38.35015575	-25.94593775
146.18650250000002	141.504755	1119.33474725	-21.254844499999997	-41.9289065	-26.452343499999998
168.74125275	156.44975275000002	1206.9459837499999	-20.059375499999998	-45.667344250000006	-26.350624749999998
183.86925125	174.21600324999997	1271.9719847499998	-21.482343750000002	-50.1003135	-27.52421875
223.946251	192.18050375	1331.9654845	-20.3174995	-58.5046895	-28.257031
232.425251	179.0960045	1359.2630005	-25.19890575	-63.45172049999999	-29.87796825
247.99549875000002	166.43850700000002	1258.5062715	-35.47687475	-64.53234499999999	-32.4001555
270.840004	147.787756	1203.2402805	-34.81625	-72.171094	-32.0884365
246.92800525	113.10925300000001	1158.542557	-38.21015675	-74.8584375	-30.958593
238.44900525000003	92.47600175	1030.305298	-44.81859425	-73.47812549999999	-29.88015575
254.812256	71.858	951.9507905	-44.857969499999996	-74.70093825000001	-28.523906
266.11250325	55.95224975000001	794.34202575	-54.46765725	-67.85297025	-28.837812250000002
304.20700475	52.00250075	572.896759	-61.788126	-59.9353135	-29.12765625
343.7960055	32.818000500000004	434.10650625000005	-54.69843875	-54.801250749999994	-27.497969
322.94925724999996	13.99950075	332.1907575	-44.550626	-48.792187999999996	-25.7556255
287.92000599999994	2.180750250000001	307.66875425	-33.390001	-34.54937525	-26.25218825
276.8637545	-13.32850025	391.60475900000006	-24.389532000000003	-13.280312500000004	-30.441250750000002
246.9280015	13.359000250000001	488.22875200000004	-22.89875	4.40343775	-34.39515725
220.4539985	18.43725025	675.0870055	-17.627968749999997	18.2043755	-37.207188499999994
202.06250000000003	4.605500250000004	836.4472655000001	-20.50124975	30.31218775	-39.92406375
192.11949900000002	28.42600125	933.5440062499999	-19.065155750000002	32.77968775	-39.770939
178.54700075000002	26.3977515	1083.680252	-11.063281000000002	30.137187750000002	-38.7231265
197.65525425	63.4552525	1171.1695100000002	-12.5704685	34.05281225	-39.274376000000004
214.26250449999998	128.57275375	1237.1867525	-10.61703125	30.521093500000003	-36.438282
173.850006	166.45375425	1316.4714967500001	-7.6453127499999995	21.200155750000004	-32.13328175
161.9397545	201.52875500000002	1396.25952175	-8.7839065	14.048124500000004	-29.63187525
131.77525325	221.9027555	1414.54425075	-12.023594	1.5476560000000013	-26.43484425
104.64550200000001	224.87650674999998	1431.88351475	-11.8420315	-14.204531249999999	-23.850313
89.9902515	209.199505	1452.36428875	-16.417188	-26.172344000000002	-23.383281500000002
84.56125250000001	198.66175475	1388.11602825	-24.88937575	-32.8956255	-24.46062525
82.8532525	178.77575299999998	1346.07177775	-28.936251249999998	-42.92312525	-25.38484375
82.77700250000001	154.1622505	1343.5402530000001	-28.91109475	-48.3962505	-28.736094
104.691252	132.21750049999997	1300.7030032500002	-30.47078175	-52.1412505	-32.72499975
123.43350225	109.17474924999999	1284.46176175	-29.813438	-59.49671825	-36.414218250000005
132.72075275	104.21849999999999	1280.67977925	-29.263281250000002	-62.769218249999994	-39.055625
153.94875325	97.98125049999999	1192.7635500000001	-36.11890625	-66.17843725	-37.523280500000006
148.27575475	102.678251	1082.7652895	-42.2712505	-68.67656124999999	-33.065156
142.358755	94.778751	973.2855225000001	-48.70906225	-71.72046850000001	-26.994843499999998
148.84000575	73.871001	782.233513	-55.47718675	-71.397812	-22.580468
177.72350875	57.15700025	637.51100175	-52.470468249999996	-69.57015525000001	-20.911406
213.805008	39.8635005	567.467743	-42.664999249999994	-66.8346875	-21.60812475
244.50325400000003	33.321251	495.167496	-34.58109375	-52.37749975	-24.337031500000002
296.49050525	30.8812505	489.021744	-28.08640675	-36.84406275	-26.574844000000002
279.31900025000004	25.925000999999998	552.43125175	-23.09234375	-21.369687749999997	-28.73500025
274.56100075	3.82775	641.9030077499999	-25.32250025	-1.3168749999999996	-32.03703175
227.133503	3.0195000000000007	684.0692675	-26.563906000000003	6.286875	-32.935
120.30724899999998	-38.003	832.8025210000001	-19.699531	11.6823435	-36.75000025
120.70374874999999	-41.281750249999995	878.26277175	-24.7646875	21.568749250000003	-42.69125
104.72175025	-16.63774925	910.57751475	-14.436406	16.530936750000002	-43.876875
142.6637515	-23.225749499999996	1030.61024475	-4.45484375	19.4589055	-46.361875749999996
243.75600425	64.21775099999999	1054.61375425	-1.4918750000000005	20.3973435	-43.75656325
222.345005	120.7952515	1180.2127532499999	13.64234375	9.90062525	-35.858594499999995
182.83225275	167.719503	1307.35202025	9.1525	13.840312749999999	-33.45781275
161.3450015	250.66425325	1396.0460205	4.985312499999999	9.555000249999999	-29.412031
76.0517495	259.265255	1489.81826775	-2.8524997500000007	-1.0171877499999997	-25.3028125
37.469249749999996	269.16250225	1475.69677725	-19.38562425	-7.48781275	-24.809531000000003
44.8044995	264.81624975	1427.82702625	-30.142655499999996	-19.2521875	-23.077031
14.807749750000001	237.51874925	1350.8907775	-39.265624	-30.8700005	-21.90124975
38.536751	218.090248	1296.3110350000002	-41.2901555	-38.999844249999995	-21.767812
64.64475200000001	194.60525124999998	1282.662262	-36.99828125	-48.9245325	-20.52968725
74.31325175	183.56425099999998	1292.2087402500001	-29.70296875	-61.27843875	-19.3910935
100.3602525	147.52850149999998	1325.71301275	-20.84250025	-73.83031275	-19.19093725
119.178753	135.3895015	1283.3027345	-17.25281275	-79.17	-20.295624500000002
148.29100425000001	120.2767505	1247.61773675	-17.32828125	-83.0965615	-21.206718249999998
150.97500425	96.97475225	1134.92024225	-25.411094	-83.57343675000001	-21.47687475
160.88750275	99.76550275	937.3107297500001	-42.7185935	-70.78093725	-22.75218725
191.921255	88.3737525	784.2769925000001	-52.930937750000005	-66.2954685	-23.8142185
190.80800425	75.9450025	651.1750030000001	-54.92374975	-60.43734375	-25.39031225
228.628006	66.45950124999999	561.6575165	-52.72859375	-47.54749975	-28.325936749999997
259.64651100000003	66.0477505	541.52751925	-44.256406750000004	-43.26874975	-30.33734325
251.6860085	58.6972495	559.7360155	-35.3740625	-32.3717185	-32.448281
275.82675925	68.74699975	574.6810075	-34.5931255	-16.20062475	-34.849062
266.05150975000004	85.23225125	627.01900475	-26.231406250000003	-9.360312500000001	-33.301406
237.19850549999998	65.48350125	716.06375125	-16.226875	-3.30640625	-31.130312
212.21900575	74.80125124999999	785.51225275	-11.326875000000001	0.04265624999999995	-29.139687
179.46200575	41.525751	883.371521	-7.07984375	4.82343725	-29.52140575
211.28875375	63.272251000000004	902.7237702499999	-12.776093750000001	13.47718725	-31.788749249999995
179.66025374999998	70.08900125000001	987.5747835	-12.1996875	16.967343500000002	-31.467186999999996
173.27050225	96.65450150000001	1063.10804775	-16.78578125	28.96796825	-32.636405499999995
141.16924975	156.60225250000002	1182.713791	-14.216562500000002	28.042656250000004	-28.9624995
56.57749999999999	131.226251	1338.43154925	-17.317344	28.861875	-26.85375025
57.27899975	168.10075175	1371.8290407499999	-32.76437525	30.15687525	-27.321875000000002
20.8619995	144.7225015	1379.774292	-38.80953125	14.4943755	-23.68187525
-12.215250999999999	104.08125100000001	1296.79904175	-46.661561999999996	3.9899999999999993	-23.677500249999998
-5.27650075	104.630251	1217.98703	-43.5607805	-11.24046875	-23.34828125
-31.5217505	80.03199975	1193.190521	-30.24874925	-27.086719000000002	-23.05625
-28.1667505	86.28450025000001	1224.834259	-20.09328075	-35.36859425	-25.86281225
-1.8757497499999989	109.72375125	1251.8420104999998	-13.400625	-43.82875075	-27.721093500000002
3.35499975	124.86700250000001	1318.027008	-6.695937499999999	-53.181406249999995	-29.30593725
32.025000750000004	146.72025475	1364.90551775	-7.594999999999999	-57.99828175	-31.655312000000002
45.50600075	161.61950675000003	1356.56378175	-13.164375	-63.8903135	-32.50843725
59.551250249999995	173.7432555	1361.0930175	-19.10015675	-72.2268755	-31.668437
70.04325	160.491005	1330.2575072500001	-26.495000750000003	-80.46500225	-30.007031
67.37449925	133.84925275	1209.874008	-38.96375075	-85.8462525	-28.59062475
82.09074949999999	94.0315005	1040.55323775	-49.349999999999994	-85.639532	-28.69890575
130.2350005	51.4535005	862.92124925	-52.3993745	-83.1971875	-29.299375
169.19875125000002	34.35825025	661.59075925	-48.71124925	-81.78406149999999	-27.19390625
217.58700550000003	30.286500500000002	560.3307495	-34.62156175	-79.8153115	-24.5295315
261.90350324999997	39.390750749999995	556.3962555	-21.30515625	-75.48515624999999	-23.3154695
277.778755	59.2157505	527.28399675	-20.272655999999998	-59.411407	-25.95031275
325.98400875000004	80.79450025	543.95225525	-24.697968	-37.050782	-31.31625025
326.334755	84.53075025000001	591.837265	-28.611405500000004	-18.613437499999996	-33.9150005
280.27975675	61.65575	633.02751175	-33.0389055	-0.8892185000000001	-35.59390625
258.67050374999997	29.767999749999998	733.3420105	-32.354218	8.79593775	-36.59468725
207.35424999999998	21.54825025	827.9377595	-30.141562	10.47156275	-35.30078125
195.06274975000002	-7.137000000000002	909.9064942499999	-25.450468249999997	11.707500249999999	-35.301874500000004
234.63650125	39.787249	983.6859892499999	-22.6799995	14.245000000000001	-36.433906
244.83875650000002	87.42825124999999	1085.9372405	-15.59031225	12.937968750000001	-32.46578175
230.21400825	110.22700125	1212.6799925	-11.89890625	16.5375	-30.289218750000003
214.72000875000003	177.06775299999998	1312.079498	-16.923594	20.7910935	-28.790781500000005
166.48425850000004	176.01550325	1403.579498	-18.09062525	16.51562475	-24.93640675
119.20925524999998	172.401253	1406.67526225	-25.76218825	10.62249975	-23.757344
89.8530035	153.82675175	1352.796997	-31.095313249999997	-0.01421899999999976	-22.704062750000002
59.09375250000001	115.79325	1277.8432617499998	-32.09281325	-12.741093750000001	-22.19875025
44.880751749999995	91.25600125	1166.1675265	-33.2018755	-22.322344	-22.6428125
43.82849975	74.2065	1084.25976575	-31.881718499999998	-29.541094	-23.1634375
39.81775	60.7560005	1031.90652475	-30.35593725	-31.820469	-24.3753125
41.9375005	59.276750500000006	987.25451675	-28.854218250000002	-33.06296925	-25.3596875
51.5145005	65.3462505	982.45076	-26.323281	-32.994063	-26.02031225
52.292250499999994	65.78849975	997.578766	-23.14046875	-32.789531749999995	-26.291562
57.477250000000005	71.00400075	1005.9357605	-22.74562525	-32.33453175	-26.655780749999998
68.41149899999999	80.825001	1027.3619995	-23.59437525	-30.43359375	-27.52203075
78.003749	88.373751	1064.2212522500001	-23.0201565	-32.951406	-27.176405999999997
79.406751	99.963751	1120.3107602500002	-21.4145315	-34.925624750000004	-27.651093499999998
113.01774999999999	116.32699975	1191.1012572500001	-19.6973435	-38.16093725	-27.70249975
128.1000005	131.04324925	1281.4422605	-15.993905999999999	-45.811719	-27.526406249999997
158.26449975	147.5132505	1396.4425047500001	-13.08124975	-52.309687499999995	-28.520625
170.08324800000003	163.19025075	1432.7984925	-17.789843499999996	-61.864687	-27.785625500000002
149.52624875	164.68474999999998	1418.2805175	-27.88515675	-71.11015525	-27.67843775
157.92900075	152.835501	1340.18527225	-41.088907	-75.81984325	-27.7134375
142.343502	114.3902495	1167.02153025	-56.2493765	-77.11265574999999	-27.663125
162.32100300000002	66.0324995	955.809021	-65.524377	-71.085	-29.75656225
232.776001	21.22800075	776.4385072499999	-56.89468925	-70.81703275	-28.789687249999997
246.4399985	-24.06450075	629.5657655	-43.175782749999996	-70.57531275000001	-25.871562249999997
288.78924925	-35.39525125	516.5785065	-31.074531999999998	-63.2745315	-24.923281
316.42224875	-18.620250750000004	482.79976650000003	-18.78078175	-56.7262505	-23.4237495
276.29950325	-1.9062504999999978	486.64276874999996	-18.449375	-38.038436999999995	-26.255468999999998
312.16750724999997	33.12300075	510.2497635	-24.723125500000002	-13.262812499999999	-32.49531325
297.9850045	41.769751	594.3382645	-24.16968775	-0.213281499999999	-33.64812575
245.8147545	16.592000499999997	693.9207612499999	-23.813125000000003	11.356406499999999	-34.887344999999996
247.08050175	4.74275025	795.089264	-25.0381255	22.462343750000002	-36.770782000000004
233.5689965	23.866251000000002	893.71101375	-18.8825	21.976718750000003	-33.024687750000005
185.47049725000002	2.01300075	1002.4282685000001	-10.0307815	20.027656250000003	-29.24250025
183.73199675	40.00075175	1072.05976875	-9.962968999999998	24.078906250000003	-28.777656
152.45424674999998	72.31550225000001	1155.0960237499999	-7.9253124999999995	20.672969249999998	-24.822656249999998
84.42399825	66.64250200000001	1219.527283	-10.6990625	20.5493755	-24.724218999999998
99.10974725	147.3150025	1273.573273	-14.946093750000001	20.00359425	-26.134062999999998
78.35449825	167.0790005	1380.8875125	-10.7428125	6.25953175	-22.167032
52.85649875	189.52700049999999	1406.4769900000001	-13.18625025	-4.233906	-21.2198445
79.62024875	214.3844985	1442.81771875	-14.639844	-15.2304685	-20.829375250000002
52.505750000000006	197.258747	1427.3237305	-18.830000000000002	-28.3357805	-20.182969
50.44699975	184.47924799999998	1368.046997	-24.723125	-36.9424995	-22.10906275
82.1212515	172.91974650000003	1344.91275	-24.24624975	-47.3090625	-23.911562500000002
76.082252	151.356247	1292.956024	-24.720937250000002	-57.8298445	-25.149687999999998
102.1902525	130.70774849999998	1289.1892699999999	-28.539218500000004	-60.588282750000005	-29.138593999999998
143.456753	117.973999	1249.9052735	-33.4775	-62.41265799999999	-32.46906249999999
159.6675035	98.59124924999999	1191.5892945	-36.8637505	-66.52953275	-32.1201565
158.06625375000002	75.762	1149.94152825	-38.177344250000004	-68.571563	-31.01546875
140.07125375	59.18524975	1056.38278175	-41.581094750000005	-68.225938	-30.517812749999997
125.37025349999999	52.139748999999995	962.839279	-44.654531500000004	-65.230156	-31.37312525
124.74500175	38.50625	841.2510070000001	-49.43093775	-58.05406175	-34.08234375
159.24050225	40.54975	710.9702605	-50.864844500000004	-54.54203125	-36.13968774999999
217.95299899999998	47.51900025	583.3430022499999	-46.5062505	-52.38734325	-35.547968499999996
255.84924675000002	29.5240005	501.755493	-39.99625125	-44.89515625	-34.40390625
298.4729995	32.83325025	468.06825249999997	-33.74000075	-32.486562750000004	-33.92375025
309.2089995	22.90550025	512.8574982499999	-24.502187749999997	-18.05343725	-31.58421875
240.56875275000002	-9.363500749999998	602.4512482499999	-19.888750249999998	-7.328125000000001	-29.47437525
195.48975425	-2.928000749999999	708.53025825	-14.394843750000001	3.5557812500000003	-29.700781499999998
136.304501	-16.500501	854.0305022499999	-13.958437750000002	16.0103125	-32.7709375
120.71900225	9.805749000000002	890.7830045000001	-20.52968775	29.99281275	-36.60999975
118.889002	32.680749750000004	981.6730192499999	-14.810469000000001	35.064531499999994	-36.062030750000005
